 After three years. If a program participant leaves his employment during the program's three -year earning period comes 
The program participant to be excluded from the program and not obtaining any shares or other benefits within the framework of the program. Further 
Information on outstanding long -term incentive programs can be found in Note 4 in the annual report 202 4.

The 2022 program refers to 1,500 s paragraphs and consequently 1,500 match shares and 4,500 performance shares. Matching shares and 
Performance shares have been allocated free of charge and are subject to three -year earning periods and require continued employment. Earning of 
Performance shares also require fulfillment of performance conditions that are K opposed to the share price development during the three -year performance period. 2022 years 
Programs are designed so that if all employment does not invest in their 1,500 savings shares, other employees who have invested in more savings shares may take advantage of it 
the remaining poet and there Spirit pole and thus count more savings shares in the 2022 program. The CEO has not participated in the 2022 program. 
 
The 2023 program is designed with the same criteria presented for 202 2 years program above. CEO has invested in 1,869 shares and will 
Calculate all 1,869 savings shares, as some employees did not subscribe for their share of the savings shares. 
 
 
 
Table 2 - Ongoing A KTIE Program 
 
Executives 
(Position) Program 
Name performance period date for 
Assignment Date for 
Earning exit of 
Locking period Matching shares performance shares Total number 
Share rights 
 
Martin Åmark 
(CEO) LTIP 2022 2022 -2024 2022 -05-05 2024 -12-31 2025 -05-31 - - - - 
LTIP 202 31) 2023.05 -2026.05 2023 -05-04 AGM 2026 AGM 2026 1 869 5 607 7 476 
 
 
 
1) The total number of share rights allocated during the year amounts to 7,476, of which 5,607 are subject to performance terms. Share rights are first earned at the date of the Annual General Meeting 2026. Value for LTIP 20